Folder: 13_gle/sas_exports

Note: README.md
# 13_gle
gle files

File: 1_figure_capx_xrd_at_by_ci_and_size.dat
sales_d_rank,capx_xrd_at_Mean_1,capx_xrd_at_Mean_3
1,0.188317,0.151057
2,0.184921,0.144005
3,0.17794,0.155689
4,0.171651,0.14359
5,0.157367,0.128769
6,0.13034,0.13292
7,0.119177,0.119878
8,0.106393,0.100401
9,0.0810905,0.10777
10,0.0850945,0.0977652